File: Tefas/tahminler/_ann_TGA.csv
x_test,y_test,y_pred,GerçekFark,TahminFark,Gerçek,Tahmin,Ongoru,Skor,mean_squared_error
0.030105,0.030097,0.0480717,-8.000061e-06,0.0179667,False,True,False,-16.1732,0.0206411
0.025357,0.025434,0.0472784,7.699989e-05,0.0219214,True,True,True,-16.1732,0.0206411
0.021186,0.021201,0.0464881,1.49999e-05,0.0253021,True,True,True,-16.1732,0.0206411
0.032745,0.032641,0.0487274,-0.000103999,0.0159824,False,True,False,-16.1732,0.0206411
0.020238,0.02026,0.0463411,2.19997e-05,0.0261031,True,True,True,-16.1732,0.0206411
0.020469,0.020482,0.0463624,1.29994e-05,0.0258934,True,True,True,-16.1732,0.0206411
0.03332,0.033435,0.0488432,0.000115,0.0155232,True,True,True,-16.1732,0.0206411
0.02332,0.023498,0.0469154,0.000178,0.0235954,True,True,True,-16.1732,0.0206411
0.034215,0.03453,0.0489666,0.000314999,0.0147516,True,True,True,-16.1732,0.0206411
0.028366,0.028439,0.0478045,7.300079e-05,0.0194385,True,True,True,-16.1732,0.0206411
0.032881,0.032941,0.0487635,5.99995e-05,0.0158825,True,True,True,-16.1732,0.0206411
0.027784,0.027699,0.0476979,-8.499995e-05,0.0199139,False,True,False,-16.1732,0.0206411
0.032941,0.032965,0.0487721,2.4002e-05,0.0158311,True,True,True,-16.1732,0.0206411
0.032033,0.032178,0.0485789,0.000144999,0.0165459,True,True,True,-16.1732,0.0206411
0.022682,0.02253,0.0467773,-0.0001519993,0.0240953,False,True,False,-16.1732,0.0206411
0.030497,0.030603,0.0482133,0.000106001,0.0177163,True,True,True,-16.1732,0.0206411
0.024308,0.024304,0.0470617,-3.999099e-06,0.0227537,False,True,False,-16.1732,0.0206411
0.020482,0.020488,0.046365,5.99958e-06,0.025883,True,True,True,-16.1732,0.0206411
0.027652,0.027759,0.0476925,0.000107002,0.0200405,True,True,True,-16.1732,0.0206411
0.030438,0.030367,0.0481491,-7.100031e-05,0.0177111,False,True,False,-16.1732,0.0206411
0.024427,0.024246,0.0470884,-0.000181001,0.0226614,False,True,False,-16.1732,0.0206411
0.02538,0.025324,0.0472673,-5.60004e-05,0.0218873,False,True,False,-16.1732,0.0206411
0.023176,0.023186,0.046871,1.00005e-05,0.023695,True,True,True,-16.1732,0.0206411
0.022619,0.022766,0.0467831,0.000147,0.0241641,True,True,True,-16.1732,0.0206411
0.027056,0.027138,0.0475912,8.200109e-05,0.0205352,True,True,True,-16.1732,0.0206411
0.032128,0.032282,0.0485951,0.000154,0.0164671,True,True,True,-16.1732,0.0206411
0.022997,0.022904,0.0468282,-9.300001e-05,0.0238312,False,True,False,-16.1732,0.0206411
0.030557,0.030629,0.0481726,7.200055e-05,0.0176156,True,True,True,-16.1732,0.0206411
0.024332,0.024344,0.0470832,1.199916e-05,0.0227512,True,True,True,-16.1732,0.0206411
0.033038,0.033102,0.0487809,6.399676e-05,0.0157429,True,True,True,-16.1732,0.0206411
0.033292,0.033251,0.0488199,-4.10005e-05,0.0155279,False,True,False,-16.1732,0.0206411
0.024723,0.024663,0.0471366,-6.000139e-05,0.0224136,False,True,False,-16.1732,0.0206411
0.034961,0.034929,0.0490516,-3.20002e-05,0.0140906,False,True,False,-16.1732,0.0206411
0.031954,0.031921,0.0485404,-3.30023e-05,0.0165864,False,True,False,-16.1732,0.0206411
0.023046,0.023008,0.046842,-3.79998e-05,0.023796,False,True,False,-16.1732,0.0206411
0.031985,0.032039,0.0485581,5.40018e-05,0.0165731,True,True,True,-16.1732,0.0206411
0.028584,0.028682,0.0478467,9.799935e-05,0.0192627,True,True,True,-16.1732,0.0206411
0.033473,0.033404,0.0488551,-6.899983e-05,0.0153821,False,True,False,-16.1732,0.0206411
0.022701,0.022629,0.0467571,-7.200055e-05,0.0240561,False,True,False,-16.1732,0.0206411
0.020102,0.020169,0.0464338,6.69993e-05,0.0263318,True,True,True,-16.1732,0.0206411
0.034448,0.034228,0.0489845,-0.000220001,0.0145365,False,True,False,-16.1732,0.0206411
0.020592,0.020639,0.0463877,4.70001e-05,0.0257957,True,True,True,-16.1732,0.0206411
0.021469,0.021454,0.0465504,-1.49999e-05,0.0250814,False,True,False,-16.1732,0.0206411
0.022656,0.022682,0.0467734,2.60007e-05,0.0241174,True,True,True,-16.1732,0.0206411
0.033295,0.033234,0.0488273,-6.100163e-05,0.0155323,False,True,False,-16.1732,0.0206411
0.024537,0.024508,0.047107,-2.90014e-05,0.02257,False,True,False,-16.1732,0.0206411
0.031621,0.031707,0.0484565,8.599833e-05,0.0168355,True,True,True,-16.1732,0.0206411
0.032021,0.032061,0.0485679,3.99984e-05,0.0165469,True,True,True,-16.1732,0.0206411
0.033696,0.033657,0.0488938,-3.90001e-05,0.0151978,False,True,False,-16.1732,0.0206411
0.033607,0.033738,0.048882,0.000131,0.015275,True,True,True,-16.1732,0.0206411
0.019901,0.019911,0.0464964,1.00005e-05,0.0265954,True,True,True,-16.1732,0.0206411
0.023806,0.023888,0.0469843,8.199923e-05,0.0231783,True,True,True,-16.1732,0.0206411
0.033435,0.033401,0.0488591,-3.3997e-05,0.0154241,False,True,False,-16.1732,0.0206411
0.034897,0.034806,0.0490426,-9.100139e-05,0.0141456,False,True,False,-16.1732,0.0206411
0.022577,0.02261,0.0467386,3.299862e-05,0.0241616,True,True,True,-16.1732,0.0206411
0.032251,0.032401,0.0486459,0.000149999,0.0163949,True,True,True,-16.1732,0.0206411
0.029714,0.029756,0.0480184,4.20008e-05,0.0183044,True,True,True,-16.1732,0.0206411
0.026672,0.026697,0.047521,2.50004e-05,0.020849,True,True,True,-16.1732,0.0206411
0.0258,0.025838,0.0473384,3.79998e-05,0.0215384,True,True,True,-16.1732,0.0206411
0.032203,0.03235,0.0486455,0.000147,0.0164425,True,True,True,-16.1732,0.0206411
0.021278,0.021287,0.0465125,9.000301e-06,0.0252345,True,True,True,-16.1732,0.0206411
0.027122,0.02713,0.0475866,8.000061e-06,0.0204646,True,True,True,-16.1732,0.0206411
0.033251,0.03332,0.0488153,6.899983e-05,0.0155643,True,True,True,-16.1732,0.0206411
0.03593,0.036027,0.0491845,9.699911e-05,0.0132545,True,True,True,-16.1732,0.0206411
0.030603,0.030722,0.0482254,0.000118999,0.0176224,True,True,True,-16.1732,0.0206411
0.025046,0.025088,0.0471974,4.19989e-05,0.0221514,True,True,True,-16.1732,0.0206411
0.026156,0.026172,0.0474001,1.60001e-05,0.0212441,True,True,True,-16.1732,0.0206411
0.03192,0.032157,0.048582,0.000236999,0.016662,True,True,True,-16.1732,0.0206411
0.023605,0.023633,0.0469487,2.79993e-05,0.0233437,True,True,True,-16.1732,0.0206411
0.022494,0.022524,0.0467638,2.99998e-05,0.0242698,True,True,True,-16.1732,0.0206411
0.02063,0.020706,0.0464024,7.599965e-05,0.0257724,True,True,True,-16.1732,0.0206411
0.033401,0.033587,0.0488551,0.000186,0.0154541,True,True,True,-16.1732,0.0206411
0.020425,0.020481,0.0463551,5.60004e-05,0.0259301,True,True,True,-16.1732,0.0206411
0.032617,0.032758,0.0487067,0.000141002,0.0160897,True,True,True,-16.1732,0.0206411
0.03177,0.031884,0.0485267,0.000114001,0.0167567,True,True,True,-16.1732,0.0206411
0.025636,0.025675,0.0473149,3.90001e-05,0.0216789,True,True,True,-16.1732,0.0206411
0.020431,0.020469,0.0463577,3.79998e-05,0.0259267,True,True,True,-16.1732,0.0206411
0.028865,0.028894,0.0478888,2.89995e-05,0.0190238,True,True,True,-16.1732,0.0206411
0.028868,0.02898,0.0478848,0.000112001,0.0190168,True,True,True,-16.1732,0.0206411
0.023633,0.023614,0.0469528,-1.899898e-05,0.0233198,False,True,False,-16.1732,0.0206411
0.034789,0.034761,0.0490341,-2.79993e-05,0.0142451,False,True,False,-16.1732,0.0206411
0.024023,0.02406,0.0470116,3.69996e-05,0.0229886,True,True,True,-16.1732,0.0206411
0.021443,0.021441,0.0465506,-2.000481e-06,0.0251076,False,True,False,-16.1732,0.0206411
0.029266,0.029357,0.0479474,9.099953e-05,0.0186814,True,True,True,-16.1732,0.0206411
0.020774,0.020884,0.0464303,0.00011,0.0256563,True,True,True,-16.1732,0.0206411
0.03039,0.030177,0.048174,-0.000212999,0.017784,False,True,False,-16.1732,0.0206411
0.020368,0.020422,0.0463369,5.39999e-05,0.0259689,True,True,True,-16.1732,0.0206411
0.034596,0.034697,0.0490032,0.000101,0.0144072,True,True,True,-16.1732,0.0206411
0.034409,0.034453,0.0489838,4.39994e-05,0.0145748,True,True,True,-16.1732,0.0206411
0.033102,0.033217,0.0487902,0.000115003,0.0156882,True,True,True,-16.1732,0.0206411
0.026936,0.027122,0.047568,0.000186,0.020632,True,True,True,-16.1732,0.0206411
0.032157,0.032146,0.0486144,-1.10008e-05,0.0164574,False,True,False,-16.1732,0.0206411
0.034618,0.034789,0.0490101,0.000170998,0.0143921,True,True,True,-16.1732,0.0206411
0.033105,0.033202,0.048811,9.699911e-05,0.015706,True,True,True,-16.1732,0.0206411
0.020146,0.020171,0.0464025,2.50004e-05,0.0262565,True,True,True,-16.1732,0.0206411
0.020169,0.020182,0.046428,1.30013e-05,0.026259,True,True,True,-16.1732,0.0206411
0.033214,0.033255,0.0488118,4.10005e-05,0.0155978,True,True,True,-16.1732,0.0206411
0.02513,0.025123,0.0472191,-6.99982e-06,0.0220891,False,True,False,-16.1732,0.0206411
0.025533,0.025636,0.0473038,0.000103001,0.0217708,True,True,True,-16.1732,0.0206411
0.020661,0.020582,0.0463916,-7.900037e-05,0.0257306,False,True,False,-16.1732,0.0206411
0.032849,0.032732,0.0487393,-0.000117,0.0158903,False,True,False,-16.1732,0.0206411
0.032826,0.032921,0.048758,9.500235e-05,0.015932,True,True,True,-16.1732,0.0206411
0.030233,0.030179,0.0481017,-5.39999e-05,0.0178687,False,True,False,-16.1732,0.0206411
0.020613,0.02062,0.046383,6.99982e-06,0.02577,True,True,True,-16.1732,0.0206411
0.020582,0.020592,0.0463858,1.00005e-05,0.0258038,True,True,True,-16.1732,0.0206411
0.033234,0.033036,0.0488203,-0.000197999,0.0155863,False,True,False,-16.1732,0.0206411
0.032956,0.032993,0.0487661,3.69996e-05,0.0158101,True,True,True,-16.1732,0.0206411
0.034701,0.034834,0.0490176,0.000133,0.0143166,True,True,True,-16.1732,0.0206411
0.021169,0.021186,0.0464848,1.70004e-05,0.0253158,True,True,True,-16.1732,0.0206411
0.032993,0.032977,0.0487722,-1.60001e-05,0.0157792,False,True,False,-16.1732,0.0206411
0.024523,0.02455,0.047111,2.70009e-05,0.022588,True,True,True,-16.1732,0.0206411
0.024196,0.024231,0.047048,3.49991e-05,0.022852,True,True,True,-16.1732,0.0206411
0.027075,0.027056,0.0475901,-1.90008e-05,0.0205151,False,True,False,-16.1732,0.0206411
0.032453,0.032531,0.0486748,7.800013e-05,0.0162218,True,True,True,-16.1732,0.0206411
0.024231,0.024308,0.0470529,7.699989e-05,0.0228219,True,True,True,-16.1732,0.0206411
0.023536,0.02332,0.0469325,-0.000216,0.0233965,False,True,False,-16.1732,0.0206411
0.021936,0.022011,0.0466388,7.500127e-05,0.0247028,True,True,True,-16.1732,0.0206411
0.02725,0.027408,0.0476144,0.000158001,0.0203644,True,True,True,-16.1732,0.0206411
0.025315,0.025352,0.047271,3.69996e-05,0.021956,True,True,True,-16.1732,0.0206411
0.024086,0.02413,0.04703,4.39994e-05,0.022944,True,True,True,-16.1732,0.0206411
0.032525,0.032675,0.0486525,0.000150003,0.0161275,True,True,True,-16.1732,0.0206411
0.031448,0.031522,0.0484071,7.399917e-05,0.0169591,True,True,True,-16.1732,0.0206411
0.019469,0.019445,0.0466628,-2.40002e-05,0.0271938,False,True,False,-16.1732,0.0206411
0.020215,0.020352,0.0463282,0.000137001,0.0261132,True,True,True,-16.1732,0.0206411
0.03132,0.031258,0.0483632,-6.200001e-05,0.0170432,False,True,False,-16.1732,0.0206411
0.034451,0.034549,0.0489932,9.800121e-05,0.0145422,True,True,True,-16.1732,0.0206411
0.022861,0.023367,0.0468643,0.0005060006,0.0240033,True,True,True,-16.1732,0.0206411
0.022523,0.022492,0.0467692,-3.1e-05,0.0242462,False,True,False,-16.1732,0.0206411
0.03169,0.031621,0.0484597,-6.899983e-05,0.0167697,False,True,False,-16.1732,0.0206411
0.022524,0.022523,0.0467678,-9.983778e-07,0.0242438,False,True,False,-16.1732,0.0206411
0.020884,0.020981,0.0464416,9.700097e-05,0.0255576,True,True,True,-16.1732,0.0206411
0.033255,0.033409,0.0488332,0.000154,0.0155782,True,True,True,-16.1732,0.0206411
0.034372,0.034448,0.0489745,7.600337e-05,0.0146025,True,True,True,-16.1732,0.0206411
0.024982,0.025029,0.0472022,4.70001e-05,0.0222202,True,True,True,-16.1732,0.0206411
0.03072,0.030808,0.0482527,8.800067e-05,0.0175327,True,True,True,-16.1732,0.0206411
0.029546,0.029597,0.0479826,5.09992e-05,0.0184366,True,True,True,-16.1732,0.0206411
0.020616,0.020607,0.046398,-9.000301e-06,0.025782,False,True,False,-16.1732,0.0206411
0.01953,0.019507,0.0466112,-2.29999e-05,0.0270812,False,True,False,-16.1732,0.0206411
0.032898,0.032985,0.0487524,8.700043e-05,0.0158544,True,True,True,-16.1732,0.0206411
0.022071,0.022116,0.0466614,4.49996e-05,0.0245904,True,True,True,-16.1732,0.0206411
0.025324,0.025317,0.0472643,-6.99982e-06,0.0219403,False,True,False,-16.1732,0.0206411
0.021307,0.021319,0.0465118,1.199916e-05,0.0252048,True,True,True,-16.1732,0.0206411
0.023312,0.023262,0.0468958,-5.00008e-05,0.0235838,False,True,False,-16.1732,0.0206411
0.034453,0.034646,0.0489889,0.000193,0.0145359,True,True,True,-16.1732,0.0206411
0.020019,0.020102,0.0464381,8.299947e-05,0.0264191,True,True,True,-16.1732,0.0206411
0.032085,0.032022,0.0485789,-6.300211e-05,0.0164939,False,True,False,-16.1732,0.0206411
0.030671,0.03072,0.0482455,4.89987e-05,0.0175745,True,True,True,-16.1732,0.0206411
0.027501,0.027553,0.0476476,5.19995e-05,0.0201466,True,True,True,-16.1732,0.0206411
0.025268,0.02521,0.0472441,-5.7999e-05,0.0219761,False,True,False,-16.1732,0.0206411
0.020507,0.020507,0.0463839,0.0,0.0258769,False,True,False,-16.1732,0.0206411
0.022569,0.02268,0.046749,0.000110999,0.02418,True,True,True,-16.1732,0.0206411
0.025312,0.025365,0.0472787,5.29997e-05,0.0219667,True,True,True,-16.1732,0.0206411
0.030564,0.03046,0.0481788,-0.000104001,0.0176148,False,True,False,-16.1732,0.0206411
0.03423,0.03442,0.0489559,0.000189997,0.0147259,True,True,True,-16.1732,0.0206411
0.034974,0.034618,0.0490557,-0.000356,0.0140817,False,True,False,-16.1732,0.0206411
0.030119,0.030098,0.0480792,-2.09995e-05,0.0179602,False,True,False,-16.1732,0.0206411
0.033587,0.033669,0.0488799,8.19974e-05,0.0152929,True,True,True,-16.1732,0.0206411
0.02754,0.02755,0.0476677,1.00005e-05,0.0201277,True,True,True,-16.1732,0.0206411
0.032641,0.032689,0.0487148,4.80004e-05,0.0160738,True,True,True,-16.1732,0.0206411
0.030459,0.030469,0.0481935,1.00005e-05,0.0177345,True,True,True,-16.1732,0.0206411
0.032379,0.032233,0.048651,-0.000146002,0.016272,False,True,False,-16.1732,0.0206411
0.03055,0.030525,0.0482126,-2.499856e-05,0.0176626,False,True,False,-16.1732,0.0206411
0.031508,0.031492,0.0484193,-1.60001e-05,0.0169113,False,True,False,-16.1732,0.0206411
0.031628,0.031612,0.0484693,-1.60001e-05,0.0168413,False,True,False,-16.1732,0.0206411
0.019493,0.019524,0.0466422,3.1e-05,0.0271492,True,True,True,-16.1732,0.0206411
0.024382,0.024354,0.0470764,-2.80011e-05,0.0226944,False,True,False,-16.1732,0.0206411
0.021665,0.021649,0.0465907,-1.60001e-05,0.0249257,False,True,False,-16.1732,0.0206411
0.025077,0.025004,0.0471894,-7.300079e-05,0.0221124,False,True,False,-16.1732,0.0206411
0.021061,0.021058,0.0464636,-2.99886e-06,0.0254026,False,True,False,-16.1732,0.0206411
0.025512,0.025533,0.0473,2.09995e-05,0.021788,True,True,True,-16.1732,0.0206411
0.025088,0.024995,0.0472034,-9.300001e-05,0.0221154,False,True,False,-16.1732,0.0206411
0.026341,0.026369,0.0474238,2.79993e-05,0.0210828,True,True,True,-16.1732,0.0206411
0.02406,0.024007,0.0470167,-5.29997e-05,0.0229567,False,True,False,-16.1732,0.0206411
0.019447,0.019476,0.0466949,2.89995e-05,0.0272479,True,True,True,-16.1732,0.0206411
0.022757,0.022782,0.046812,2.50004e-05,0.024055,True,True,True,-16.1732,0.0206411
0.028126,0.028186,0.0477569,6.000139e-05,0.0196309,True,True,True,-16.1732,0.0206411
0.022616,0.022558,0.0467797,-5.80009e-05,0.0241637,False,True,False,-16.1732,0.0206411
0.02253,0.022494,0.0467655,-3.60012e-05,0.0242355,False,True,False,-16.1732,0.0206411
0.032233,0.032198,0.048633,-3.49991e-05,0.0164,False,True,False,-16.1732,0.0206411
0.032802,0.032826,0.0487543,2.399832e-05,0.0159523,True,True,True,-16.1732,0.0206411
0.034405,0.034509,0.0489907,0.000103999,0.0145857,True,True,True,-16.1732,0.0206411
0.030309,0.030415,0.0481734,0.000106001,0.0178644,True,True,True,-16.1732,0.0206411
0.024664,0.024724,0.0471404,5.99995e-05,0.0224764,True,True,True,-16.1732,0.0206411
0.034697,0.034706,0.0490168,9.000301e-06,0.0143198,True,True,True,-16.1732,0.0206411
0.031423,0.031455,0.0483905,3.20002e-05,0.0169675,True,True,True,-16.1732,0.0206411
0.031881,0.031861,0.0485123,-2.00011e-05,0.0166313,False,True,False,-16.1732,0.0206411
0.033995,0.034153,0.0489378,0.000158001,0.0149428,True,True,True,-16.1732,0.0206411
0.028974,0.029017,0.047903,4.29992e-05,0.018929,True,True,True,-16.1732,0.0206411
0.026438,0.026511,0.0474858,7.300079e-05,0.0210478,True,True,True,-16.1732,0.0206411
0.020639,0.020539,0.046393,-9.999983e-05,0.025754,False,True,False,-16.1732,0.0206411
0.021501,0.021571,0.0465662,7.000007e-05,0.0250652,True,True,True,-16.1732,0.0206411
0.026474,0.026459,0.0474477,-1.50017e-05,0.0209737,False,True,False,-16.1732,0.0206411
0.034929,0.034932,0.0490472,2.99886e-06,0.0141182,True,True,True,-16.1732,0.0206411
0.025004,0.024946,0.0471851,-5.7999e-05,0.0221811,False,True,False,-16.1732,0.0206411
0.026036,0.02617,0.0473826,0.000134001,0.0213466,True,True,True,-16.1732,0.0206411
0.033652,0.033741,0.0488885,8.900091e-05,0.0152365,True,True,True,-16.1732,0.0206411
0.025169,0.025209,0.0472311,4.00003e-05,0.0220621,True,True,True,-16.1732,0.0206411
0.026509,0.02643,0.0474852,-7.900037e-05,0.0209762,False,True,False,-16.1732,0.0206411
0.021244,0.021295,0.0465263,5.09992e-05,0.0252823,True,True,True,-16.1732,0.0206411
0.027553,0.0276,0.0476553,4.70001e-05,0.0201023,True,True,True,-16.1732,0.0206411
0.023395,0.023316,0.046897,-7.900037e-05,0.023502,False,True,False,-16.1732,0.0206411
0.030243,0.030353,0.0481121,0.00011,0.0178691,True,True,True,-16.1732,0.0206411
0.020352,0.020281,0.0463411,-7.100031e-05,0.0259891,False,True,False,-16.1732,0.0206411
0.032977,0.032966,0.0487715,-1.10008e-05,0.0157945,False,True,False,-16.1732,0.0206411
0.032518,0.032525,0.0486506,6.99982e-06,0.0161326,True,True,True,-16.1732,0.0206411
0.030322,0.03038,0.0481251,5.7999e-05,0.0178031,True,True,True,-16.1732,0.0206411
0.024588,0.024615,0.0471196,2.6999e-05,0.0225316,True,True,True,-16.1732,0.0206411
0.034151,0.034081,0.0489581,-6.99982e-05,0.0148071,False,True,False,-16.1732,0.0206411
0.022894,0.022769,0.0467879,-0.000125,0.0238939,False,True,False,-16.1732,0.0206411
0.031522,0.031508,0.0484171,-1.39996e-05,0.0168951,False,True,False,-16.1732,0.0206411
0.031699,0.031709,0.0484813,9.998679e-06,0.0167823,True,True,True,-16.1732,0.0206411
0.026897,0.026852,0.0475535,-4.49996e-05,0.0206565,False,True,False,-16.1732,0.0206411
0.024946,0.024933,0.0471821,-1.30013e-05,0.0222361,False,True,False,-16.1732,0.0206411
0.026734,0.026763,0.0475318,2.89995e-05,0.0207978,True,True,True,-16.1732,0.0206411
0.020505,0.020479,0.0463598,-2.60007e-05,0.0258548,False,True,False,-16.1732,0.0206411
0.02268,0.022703,0.0467605,2.29999e-05,0.0240805,True,True,True,-16.1732,0.0206411
0.032288,0.032379,0.0486377,9.100139e-05,0.0163497,True,True,True,-16.1732,0.0206411
0.034641,0.034254,0.0490102,-0.000387002,0.0143692,False,True,False,-16.1732,0.0206411
0.026925,0.026936,0.0475647,1.10008e-05,0.0206397,True,True,True,-16.1732,0.0206411
0.032156,0.032251,0.0486324,9.499863e-05,0.0164764,True,True,True,-16.1732,0.0206411
0.030097,0.030119,0.0480743,2.19997e-05,0.0179773,True,True,True,-16.1732,0.0206411
0.034309,0.034447,0.048966,0.000138,0.014657,True,True,True,-16.1732,0.0206411
0.034706,0.034702,0.049018,-4.000962e-06,0.014312,False,True,False,-16.1732,0.0206411
0.025365,0.025512,0.0472852,0.000147,0.0219202,True,True,True,-16.1732,0.0206411
0.024321,0.024346,0.047067,2.50004e-05,0.022746,True,True,True,-16.1732,0.0206411
0.0327,0.032496,0.0487153,-0.0002039969,0.0160153,False,True,False,-16.1732,0.0206411
0.033741,0.033696,0.0489,-4.50015e-05,0.015159,False,True,False,-16.1732,0.0206411
0.020751,0.020782,0.0464185,3.1e-05,0.0256675,True,True,True,-16.1732,0.0206411
0.034488,0.034451,0.0489988,-3.69996e-05,0.0145108,False,True,False,-16.1732,0.0206411
0.022277,0.022295,0.0466913,1.80006e-05,0.0244143,True,True,True,-16.1732,0.0206411
0.027901,0.02795,0.0477206,4.90006e-05,0.0198196,True,True,True,-16.1732,0.0206411
0.03184,0.031927,0.0485241,8.700043e-05,0.0166841,True,True,True,-16.1732,0.0206411
0.034509,0.034599,0.0490027,8.999929e-05,0.0144937,True,True,True,-16.1732,0.0206411
0.02165,0.021641,0.0465944,-9.000301e-06,0.0249444,False,True,False,-16.1732,0.0206411
0.020569,0.020606,0.0463753,3.69996e-05,0.0258063,True,True,True,-16.1732,0.0206411
0.029186,0.029145,0.0479359,-4.09987e-05,0.0187499,False,True,False,-16.1732,0.0206411
0.021253,0.021215,0.0465253,-3.79998e-05,0.0252723,False,True,False,-16.1732,0.0206411
0.020382,0.020317,0.0463345,-6.500073e-05,0.0259525,False,True,False,-16.1732,0.0206411
0.024374,0.024427,0.0470819,5.29997e-05,0.0227079,True,True,True,-16.1732,0.0206411
0.020606,0.020626,0.04638,1.99992e-05,0.025774,True,True,True,-16.1732,0.0206411
0.02713,0.026965,0.0475899,-0.000165001,0.0204599,False,True,False,-16.1732,0.0206411
0.026558,0.026574,0.0474674,1.60001e-05,0.0209094,True,True,True,-16.1732,0.0206411
0.02534,0.025166,0.0472549,-0.000174001,0.0219149,False,True,False,-16.1732,0.0206411
0.029486,0.029594,0.0479721,0.000108,0.0184861,True,True,True,-16.1732,0.0206411
0.023129,0.023125,0.0468562,-3.999099e-06,0.0237272,False,True,False,-16.1732,0.0206411
0.02129,0.021239,0.0465324,-5.10011e-05,0.0252424,False,True,False,-16.1732,0.0206411
0.020507,0.020573,0.0463853,6.59991e-05,0.0258783,True,True,True,-16.1732,0.0206411
0.021868,0.021942,0.0466269,7.400103e-05,0.0247589,True,True,True,-16.1732,0.0206411
0.021863,0.021868,0.0466246,4.99934e-06,0.0247616,True,True,True,-16.1732,0.0206411
0.019925,0.020019,0.0464414,9.400025e-05,0.0265164,True,True,True,-16.1732,0.0206411
0.027759,0.027901,0.047705,0.000141999,0.019946,True,True,True,-16.1732,0.0206411
0.02261,0.022558,0.0467435,-5.19995e-05,0.0241335,False,True,False,-16.1732,0.0206411
0.034679,0.034488,0.0490244,-0.000190999,0.0143454,False,True,False,-16.1732,0.0206411
0.031763,0.031881,0.0484989,0.000118002,0.0167359,True,True,True,-16.1732,0.0206411
0.028682,0.028704,0.0478576,2.20016e-05,0.0191756,True,True,True,-16.1732,0.0206411