File: Tefas/tahminler/_ridge_TGA.csv
x_test,y_test,y_pred,GerçekFark,TahminFark,Gerçek,Tahmin,Ongoru,Skor,mean_squared_error
0.030105,0.030097,0.02810248,-8.000061e-06,-0.00200252,False,False,False,0.582556,0.003218142
0.025357,0.025434,0.0266189,7.699989e-05,0.00126188,True,True,True,0.582556,0.003218142
0.021186,0.021201,0.0251267,1.49999e-05,0.00394072,True,True,True,0.582556,0.003218142
0.032745,0.032641,0.0292823,-0.000103999,-0.003462717,False,False,False,0.582556,0.003218142
0.020238,0.02026,0.0248054,2.19997e-05,0.004567353,True,True,True,0.582556,0.003218142
0.020469,0.020482,0.02492246,1.29994e-05,0.00445346,True,True,True,0.582556,0.003218142
0.03332,0.033435,0.0295778,0.000115,-0.00374217,True,False,False,0.582556,0.003218142
0.02332,0.023498,0.02591775,0.000178,0.00259775,True,True,True,0.582556,0.003218142
0.034215,0.03453,0.0298022,0.000314999,-0.00441282,True,False,False,0.582556,0.003218142
0.028366,0.028439,0.0275712,7.300079e-05,-0.0007948484,True,False,False,0.582556,0.003218142
0.032881,0.032941,0.0293935,5.99995e-05,-0.00348752,True,False,False,0.582556,0.003218142
0.027784,0.027699,0.02734632,-8.499995e-05,-0.000437679,False,False,False,0.582556,0.003218142
0.032941,0.032965,0.0294026,2.4002e-05,-0.00353835,True,False,False,0.582556,0.003218142
0.032033,0.032178,0.02902874,0.000144999,-0.00300426,True,False,False,0.582556,0.003218142
0.022682,0.02253,0.0256855,-0.0001519993,0.00300347,False,True,False,0.582556,0.003218142
0.030497,0.030603,0.0284281,0.000106001,-0.00206885,True,False,False,0.582556,0.003218142
0.024308,0.024304,0.0261783,-3.999099e-06,0.0018703,False,True,False,0.582556,0.003218142
0.020482,0.020488,0.0249264,5.99958e-06,0.00444435,True,True,True,0.582556,0.003218142
0.027652,0.027759,0.0273482,0.000107002,-0.000303842,True,False,False,0.582556,0.003218142
0.030438,0.030367,0.0282776,-7.100031e-05,-0.00216044,False,False,False,0.582556,0.003218142
0.024427,0.024246,0.0262354,-0.000181001,0.001808431,False,True,False,0.582556,0.003218142
0.02538,0.025324,0.0265904,-5.60004e-05,0.00121037,False,True,False,0.582556,0.003218142
0.023176,0.023186,0.0258455,1.00005e-05,0.00266946,True,True,True,0.582556,0.003218142
0.022619,0.022766,0.0257067,0.000147,0.00308774,True,True,True,0.582556,0.003218142
0.027056,0.027138,0.0271886,8.200109e-05,0.0001326,True,True,True,0.582556,0.003218142
0.032128,0.032282,0.0290507,0.000154,-0.00307732,True,False,False,0.582556,0.003218142
0.022997,0.022904,0.0257747,-9.300001e-05,0.00277773,False,True,False,0.582556,0.003218142
0.030557,0.030629,0.0283276,7.200055e-05,-0.00222935,True,False,False,0.582556,0.003218142
0.024332,0.024344,0.0262368,1.199916e-05,0.0019048,True,True,True,0.582556,0.003218142
0.033038,0.033102,0.0293655,6.399676e-05,-0.003672544,True,False,False,0.582556,0.003218142
0.033292,0.033251,0.0295092,-4.10005e-05,-0.00378281,False,False,False,0.582556,0.003218142
0.024723,0.024663,0.0263401,-6.000139e-05,0.0016171,False,True,False,0.582556,0.003218142
0.034961,0.034929,0.0300479,-3.20002e-05,-0.004913144,False,False,False,0.582556,0.003218142
0.031954,0.031921,0.02892987,-3.30023e-05,-0.003024131,False,False,False,0.582556,0.003218142
0.023046,0.023008,0.02579955,-3.79998e-05,0.00275355,False,True,False,0.582556,0.003218142
0.031985,0.032039,0.0289717,5.40018e-05,-0.00301333,True,False,False,0.582556,0.003218142
0.028584,0.028682,0.0276724,9.799935e-05,-0.0009116139,True,False,False,0.582556,0.003218142
0.033473,0.033404,0.0295697,-6.899983e-05,-0.00390329,False,False,False,0.582556,0.003218142
0.022701,0.022629,0.0256152,-7.200055e-05,0.00291422,False,True,False,0.582556,0.003218142
0.020102,0.020169,0.024817,6.69993e-05,0.00471501,True,True,True,0.582556,0.003218142
0.034448,0.034228,0.0299449,-0.000220001,-0.00450306,False,False,False,0.582556,0.003218142
0.020592,0.020639,0.0249709,4.70001e-05,0.004378896,True,True,True,0.582556,0.003218142
0.021469,0.021454,0.0252494,-1.49999e-05,0.00378039,False,True,False,0.582556,0.003218142
0.022656,0.022682,0.02567809,2.60007e-05,0.00302209,True,True,True,0.582556,0.003218142
0.033295,0.033234,0.02954117,-6.100163e-05,-0.00375383,False,False,False,0.582556,0.003218142
0.024537,0.024508,0.0262793,-2.90014e-05,0.00174234,False,True,False,0.582556,0.003218142
0.031621,0.031707,0.0287913,8.599833e-05,-0.0028297,True,False,False,0.582556,0.003218142
0.032021,0.032061,0.0289971,3.99984e-05,-0.00302392,True,False,False,0.582556,0.003218142
0.033696,0.033657,0.0296451,-3.90001e-05,-0.004050901,False,False,False,0.582556,0.003218142
0.033607,0.033738,0.0296444,0.000131,-0.003962554,True,False,False,0.582556,0.003218142
0.019901,0.019911,0.0248216,1.00005e-05,0.00492063,True,True,True,0.582556,0.003218142
0.023806,0.023888,0.0260357,8.199923e-05,0.00222972,True,True,True,0.582556,0.003218142
0.033435,0.033401,0.02959175,-3.3997e-05,-0.003843248,False,False,False,0.582556,0.003218142
0.034897,0.034806,0.030058,-9.100139e-05,-0.00483901,False,False,False,0.582556,0.003218142
0.022577,0.02261,0.025581,3.299862e-05,0.00300398,True,True,True,0.582556,0.003218142
0.032251,0.032401,0.0291739,0.000149999,-0.003077127,True,False,False,0.582556,0.003218142
0.029714,0.029756,0.0280117,4.20008e-05,-0.001702277,True,False,False,0.582556,0.003218142
0.026672,0.026697,0.027079,2.50004e-05,0.000406973,True,True,True,0.582556,0.003218142
0.0258,0.025838,0.0267101,3.79998e-05,0.000910068,True,True,True,0.582556,0.003218142
0.032203,0.03235,0.0291842,0.000147,-0.003018804,True,False,False,0.582556,0.003218142
0.021278,0.021287,0.02517821,9.000301e-06,0.00390021,True,True,True,0.582556,0.003218142
0.027122,0.02713,0.0271762,8.000061e-06,5.41676e-05,True,True,True,0.582556,0.003218142
0.033251,0.03332,0.0295087,6.899983e-05,-0.00374229,True,False,False,0.582556,0.003218142
0.03593,0.036027,0.0301887,9.699911e-05,-0.005741302,True,False,False,0.582556,0.003218142
0.030603,0.030722,0.0284425,0.000118999,-0.00216051,True,False,False,0.582556,0.003218142
0.025046,0.025088,0.0264626,4.19989e-05,0.0014166,True,True,True,0.582556,0.003218142
0.026156,0.026172,0.02681926,1.60001e-05,0.00066326,True,True,True,0.582556,0.003218142
0.03192,0.032157,0.0290955,0.000236999,-0.00282454,True,False,False,0.582556,0.003218142
0.023605,0.023633,0.025969,2.79993e-05,0.002364,True,True,True,0.582556,0.003218142
0.022494,0.022524,0.0256751,2.99998e-05,0.00318106,True,True,True,0.582556,0.003218142
0.02063,0.020706,0.0249946,7.599965e-05,0.00436462,True,True,True,0.582556,0.003218142
0.033401,0.033587,0.0295915,0.000186,-0.00380949,True,False,False,0.582556,0.003218142
0.020425,0.020481,0.02490938,5.60004e-05,0.00448438,True,True,True,0.582556,0.003218142
0.032617,0.032758,0.0292462,0.000141002,-0.003370773,True,False,False,0.582556,0.003218142
0.03177,0.031884,0.0289324,0.000114001,-0.00283758,True,False,False,0.582556,0.003218142
0.025636,0.025675,0.0266722,3.90001e-05,0.00103624,True,True,True,0.582556,0.003218142
0.020431,0.020469,0.0249161,3.79998e-05,0.004485123,True,True,True,0.582556,0.003218142
0.028865,0.028894,0.0277622,2.89995e-05,-0.00110278,True,False,False,0.582556,0.003218142
0.028868,0.02898,0.0277463,0.000112001,-0.00112173,True,False,False,0.582556,0.003218142
0.023633,0.023614,0.0259768,-1.899898e-05,0.00234379,False,True,False,0.582556,0.003218142
0.034789,0.034761,0.0300681,-2.79993e-05,-0.00472092,False,False,False,0.582556,0.003218142
0.024023,0.02406,0.02608079,3.69996e-05,0.00205779,True,True,True,0.582556,0.003218142
0.021443,0.021441,0.0252537,-2.000481e-06,0.00381072,False,True,False,0.582556,0.003218142
0.029266,0.029357,0.0278738,9.099953e-05,-0.00139217,True,False,False,0.582556,0.003218142
0.020774,0.020884,0.0250362,0.00011,0.00426223,True,True,True,0.582556,0.003218142
0.03039,0.030177,0.0283558,-0.000212999,-0.00203421,False,False,False,0.582556,0.003218142
0.020368,0.020422,0.02484949,5.39999e-05,0.004481489,True,True,True,0.582556,0.003218142
0.034596,0.034697,0.02999083,0.000101,-0.00460517,True,False,False,0.582556,0.003218142
0.034409,0.034453,0.0298926,4.39994e-05,-0.004516389,True,False,False,0.582556,0.003218142
0.033102,0.033217,0.0293766,0.000115003,-0.00372535,True,False,False,0.582556,0.003218142
0.026936,0.027122,0.0271541,0.000186,0.000218101,True,True,True,0.582556,0.003218142
0.032157,0.032146,0.0291206,-1.10008e-05,-0.003036365,False,False,False,0.582556,0.003218142
0.034618,0.034789,0.0300494,0.000170998,-0.004568618,True,False,False,0.582556,0.003218142
0.033105,0.033202,0.0295446,9.699911e-05,-0.00356039,True,False,False,0.582556,0.003218142
0.020146,0.020171,0.0248131,2.50004e-05,0.0046671,True,True,True,0.582556,0.003218142
0.020169,0.020182,0.0248206,1.30013e-05,0.004651623,True,True,True,0.582556,0.003218142
0.033214,0.033255,0.0295184,4.10005e-05,-0.00369559,True,False,False,0.582556,0.003218142
0.02513,0.025123,0.0265066,-6.99982e-06,0.00137657,False,True,False,0.582556,0.003218142
0.025533,0.025636,0.0266573,0.000103001,0.00112428,True,True,True,0.582556,0.003218142
0.020661,0.020582,0.0249714,-7.900037e-05,0.004310379,False,True,False,0.582556,0.003218142
0.032849,0.032732,0.0292828,-0.000117,-0.00356618,False,False,False,0.582556,0.003218142
0.032826,0.032921,0.029422,9.500235e-05,-0.00340404,True,False,False,0.582556,0.003218142
0.030233,0.030179,0.0281688,-5.39999e-05,-0.00206419,False,False,False,0.582556,0.003218142
0.020613,0.02062,0.0249542,6.99982e-06,0.00434122,True,True,True,0.582556,0.003218142
0.020582,0.020592,0.024967,1.00005e-05,0.00438503,True,True,True,0.582556,0.003218142
0.033234,0.033036,0.0295385,-0.000197999,-0.00369547,False,False,False,0.582556,0.003218142
0.032956,0.032993,0.0293376,3.69996e-05,-0.003618352,True,False,False,0.582556,0.003218142
0.034701,0.034834,0.0300125,0.000133,-0.004688479,True,False,False,0.582556,0.003218142
0.021169,0.021186,0.0251209,1.70004e-05,0.003951896,True,True,True,0.582556,0.003218142
0.032993,0.032977,0.0293462,-1.60001e-05,-0.00364683,False,False,False,0.582556,0.003218142
0.024523,0.02455,0.0262949,2.70009e-05,0.00177192,True,True,True,0.582556,0.003218142
0.024196,0.024231,0.026156,3.49991e-05,0.00196004,True,True,True,0.582556,0.003218142
0.027075,0.027056,0.0271857,-1.90008e-05,0.000110663,False,True,False,0.582556,0.003218142
0.032453,0.032531,0.0292012,7.800013e-05,-0.00325184,True,False,False,0.582556,0.003218142
0.024231,0.024308,0.0261651,7.699989e-05,0.00193407,True,True,True,0.582556,0.003218142
0.023536,0.02332,0.0259332,-0.000216,0.00239721,False,True,False,0.582556,0.003218142
0.021936,0.022011,0.0253987,7.500127e-05,0.003462728,True,True,True,0.582556,0.003218142
0.02725,0.027408,0.0272181,0.000158001,-3.19313e-05,True,False,False,0.582556,0.003218142
0.025315,0.025352,0.0266069,3.69996e-05,0.00129189,True,True,True,0.582556,0.003218142
0.024086,0.02413,0.0261232,4.39994e-05,0.00203715,True,True,True,0.582556,0.003218142
0.032525,0.032675,0.0291145,0.000150003,-0.003410451,True,False,False,0.582556,0.003218142
0.031448,0.031522,0.0287001,7.399917e-05,-0.00274792,True,False,False,0.582556,0.003218142
0.019469,0.019445,0.0248524,-2.40002e-05,0.0053834,False,True,False,0.582556,0.003218142
0.020215,0.020352,0.0248548,0.000137001,0.004639838,True,True,True,0.582556,0.003218142
0.03132,0.031258,0.02863086,-6.200001e-05,-0.002689138,False,False,False,0.582556,0.003218142
0.034451,0.034549,0.0298728,9.800121e-05,-0.004578218,True,False,False,0.582556,0.003218142
0.022861,0.023367,0.02585295,0.0005060006,0.00299195,True,True,True,0.582556,0.003218142
0.022523,0.022492,0.0256842,-3.1e-05,0.00316118,False,True,False,0.582556,0.003218142
0.03169,0.031621,0.0287913,-6.899983e-05,-0.00289866,False,False,False,0.582556,0.003218142
0.022524,0.022523,0.0256811,-9.983778e-07,0.00315706,False,True,False,0.582556,0.003218142
0.020884,0.020981,0.0250495,9.700097e-05,0.00416554,True,True,True,0.582556,0.003218142
0.033255,0.033409,0.0295649,0.000154,-0.00369011,True,False,False,0.582556,0.003218142
0.034372,0.034448,0.0299345,7.600337e-05,-0.0044375,True,False,False,0.582556,0.003218142
0.024982,0.025029,0.0264831,4.70001e-05,0.00150114,True,True,True,0.582556,0.003218142
0.03072,0.030808,0.028483,8.800067e-05,-0.00223699,True,False,False,0.582556,0.003218142
0.029546,0.029597,0.02793465,5.09992e-05,-0.00161135,True,False,False,0.582556,0.003218142
0.020616,0.020607,0.0249879,-9.000301e-06,0.004371943,False,True,False,0.582556,0.003218142
0.01953,0.019507,0.0248336,-2.29999e-05,0.00530361,False,True,False,0.582556,0.003218142
0.032898,0.032985,0.0293118,8.700043e-05,-0.00358622,True,False,False,0.582556,0.003218142
0.022071,0.022116,0.0254369,4.49996e-05,0.00336589,True,True,True,0.582556,0.003218142
0.025324,0.025317,0.0265904,-6.99982e-06,0.00126639,False,True,False,0.582556,0.003218142
0.021307,0.021319,0.0251728,1.199916e-05,0.00386575,True,True,True,0.582556,0.003218142
0.023312,0.023262,0.0258845,-5.00008e-05,0.00257247,False,True,False,0.582556,0.003218142
0.034453,0.034646,0.02990202,0.000193,-0.00455098,True,False,False,0.582556,0.003218142
0.020019,0.020102,0.02481222,8.299947e-05,0.00479322,True,True,True,0.582556,0.003218142
0.032085,0.032022,0.029013,-6.300211e-05,-0.00307204,False,False,False,0.582556,0.003218142
0.030671,0.03072,0.0284739,4.89987e-05,-0.00219708,True,False,False,0.582556,0.003218142
0.027501,0.027553,0.0272638,5.19995e-05,-0.000237195,True,False,False,0.582556,0.003218142
0.025268,0.02521,0.0265499,-5.7999e-05,0.00128189,False,True,False,0.582556,0.003218142
0.020507,0.020507,0.02497,0.0,0.004463043,False,True,False,0.582556,0.003218142
0.022569,0.02268,0.02561384,0.000110999,0.00304484,True,True,True,0.582556,0.003218142
0.025312,0.025365,0.0266236,5.29997e-05,0.00131162,True,True,True,0.582556,0.003218142
0.030564,0.03046,0.0283445,-0.000104001,-0.0022195,False,False,False,0.582556,0.003218142
0.03423,0.03442,0.02993,0.000189997,-0.004299976,True,False,False,0.582556,0.003218142
0.034974,0.034618,0.0300797,-0.000356,-0.004894253,False,False,False,0.582556,0.003218142
0.030119,0.030098,0.0281221,-2.09995e-05,-0.001996899,False,False,False,0.582556,0.003218142
0.033587,0.033669,0.02961227,8.19974e-05,-0.003974732,True,False,False,0.582556,0.003218142
0.02754,0.02755,0.0273027,1.00005e-05,-0.000237308,True,False,False,0.582556,0.003218142
0.032641,0.032689,0.0292763,4.80004e-05,-0.00336472,True,False,False,0.582556,0.003218142
0.030459,0.030469,0.0283941,1.00005e-05,-0.00206487,True,False,False,0.582556,0.003218142
0.032379,0.032233,0.0291613,-0.000146002,-0.0032177,False,False,False,0.582556,0.003218142
0.03055,0.030525,0.0284237,-2.499856e-05,-0.00212627,False,False,False,0.582556,0.003218142
0.031508,0.031492,0.0287186,-1.60001e-05,-0.00278936,False,False,False,0.582556,0.003218142
0.031628,0.031612,0.0288166,-1.60001e-05,-0.00281137,False,False,False,0.582556,0.003218142
0.019493,0.019524,0.0248444,3.1e-05,0.00535142,True,True,True,0.582556,0.003218142
0.024382,0.024354,0.026209,-2.80011e-05,0.00182698,False,True,False,0.582556,0.003218142
0.021665,0.021649,0.0253229,-1.60001e-05,0.00365793,False,True,False,0.582556,0.003218142
0.025077,0.025004,0.026438,-7.300079e-05,0.00136101,False,True,False,0.582556,0.003218142
0.021061,0.021058,0.0250805,-2.99886e-06,0.004019499,False,True,False,0.582556,0.003218142
0.025512,0.025533,0.0266507,2.09995e-05,0.00113873,True,True,True,0.582556,0.003218142
0.025088,0.024995,0.0264724,-9.300001e-05,0.00138439,False,True,False,0.582556,0.003218142
0.026341,0.026369,0.0268565,2.79993e-05,0.0005155001,True,True,True,0.582556,0.003218142
0.02406,0.024007,0.0260905,-5.29997e-05,0.00203051,False,True,False,0.582556,0.003218142
0.019447,0.019476,0.0248659,2.89995e-05,0.005418904,True,True,True,0.582556,0.003218142
0.022757,0.022782,0.0257631,2.50004e-05,0.00300611,True,True,True,0.582556,0.003218142
0.028126,0.028186,0.0274602,6.000139e-05,-0.0006658342,True,False,False,0.582556,0.003218142
0.022616,0.022558,0.02569864,-5.80009e-05,0.00308264,False,True,False,0.582556,0.003218142
0.02253,0.022494,0.02567517,-3.60012e-05,0.00314517,False,True,False,0.582556,0.003218142
0.032233,0.032198,0.0291509,-3.49991e-05,-0.003082104,False,False,False,0.582556,0.003218142
0.032802,0.032826,0.0294174,2.399832e-05,-0.003384607,True,False,False,0.582556,0.003218142
0.034405,0.034509,0.0298317,0.000103999,-0.00457327,True,False,False,0.582556,0.003218142
0.030309,0.030415,0.0283637,0.000106001,-0.00194532,True,False,False,0.582556,0.003218142
0.024664,0.024724,0.02636144,5.99995e-05,0.00169744,True,True,True,0.582556,0.003218142
0.034697,0.034706,0.0300026,9.000301e-06,-0.004694402,True,False,False,0.582556,0.003218142
0.031423,0.031455,0.0286728,3.20002e-05,-0.00275015,True,False,False,0.582556,0.003218142
0.031881,0.031861,0.0288823,-2.00011e-05,-0.00299871,False,False,False,0.582556,0.003218142
0.033995,0.034153,0.0297593,0.000158001,-0.004235655,True,False,False,0.582556,0.003218142
0.028974,0.029017,0.0277873,4.29992e-05,-0.0011867,True,False,False,0.582556,0.003218142
0.026438,0.026511,0.0270236,7.300079e-05,0.000585625,True,True,True,0.582556,0.003218142
0.020639,0.020539,0.0249782,-9.999983e-05,0.00433919,False,True,False,0.582556,0.003218142
0.021501,0.021571,0.02528739,7.000007e-05,0.00378639,True,True,True,0.582556,0.003218142
0.026474,0.026459,0.0269052,-1.50017e-05,0.000431176,False,True,False,0.582556,0.003218142
0.034929,0.034932,0.0300487,2.99886e-06,-0.004880322,True,False,False,0.582556,0.003218142
0.025004,0.024946,0.026437,-5.7999e-05,0.001432972,False,True,False,0.582556,0.003218142
0.026036,0.02617,0.0267891,0.000134001,0.0007531289,True,True,True,0.582556,0.003218142
0.033652,0.033741,0.0296327,8.900091e-05,-0.00401934,True,False,False,0.582556,0.003218142
0.025169,0.025209,0.02653062,4.00003e-05,0.00136162,True,True,True,0.582556,0.003218142
0.026509,0.02643,0.0270132,-7.900037e-05,0.0005041659,False,True,False,0.582556,0.003218142
0.021244,0.021295,0.0252164,5.09992e-05,0.003972372,True,True,True,0.582556,0.003218142
0.027553,0.0276,0.02727563,4.70001e-05,-0.0002773702,True,False,False,0.582556,0.003218142
0.023395,0.023316,0.0258795,-7.900037e-05,0.0024845,False,True,False,0.582556,0.003218142
0.030243,0.030353,0.0281969,0.00011,-0.00204613,True,False,False,0.582556,0.003218142
0.020352,0.020281,0.0248712,-7.100031e-05,0.00451916,False,True,False,0.582556,0.003218142
0.032977,0.032966,0.0293497,-1.10008e-05,-0.003627263,False,False,False,0.582556,0.003218142
0.032518,0.032525,0.0291081,6.99982e-06,-0.00340988,True,False,False,0.582556,0.003218142
0.030322,0.03038,0.0282231,5.7999e-05,-0.00209887,True,False,False,0.582556,0.003218142
0.024588,0.024615,0.0263112,2.6999e-05,0.001723215,True,True,True,0.582556,0.003218142
0.034151,0.034081,0.0297643,-6.99982e-05,-0.004386738,False,False,False,0.582556,0.003218142
0.022894,0.022769,0.0256793,-0.000125,0.0027853,False,True,False,0.582556,0.003218142
0.031522,0.031508,0.0287133,-1.39996e-05,-0.002808746,False,False,False,0.582556,0.003218142
0.031699,0.031709,0.0288357,9.998679e-06,-0.00286334,True,False,False,0.582556,0.003218142
0.026897,0.026852,0.0271285,-4.49996e-05,0.000231467,False,True,False,0.582556,0.003218142
0.024946,0.024933,0.0264371,-1.30013e-05,0.00149108,False,True,False,0.582556,0.003218142
0.026734,0.026763,0.0270966,2.89995e-05,0.0003626328,True,True,True,0.582556,0.003218142
0.020505,0.020479,0.0249059,-2.60007e-05,0.004400898,False,True,False,0.582556,0.003218142
0.02268,0.022703,0.0256295,2.29999e-05,0.00294947,True,True,True,0.582556,0.003218142
0.032288,0.032379,0.0291491,9.100139e-05,-0.00313888,True,False,False,0.582556,0.003218142
0.034641,0.034254,0.0299454,-0.000387002,-0.004695598,False,False,False,0.582556,0.003218142
0.026925,0.026936,0.0271487,1.10008e-05,0.0002237428,True,True,True,0.582556,0.003218142
0.032156,0.032251,0.0291626,9.499863e-05,-0.00299339,True,False,False,0.582556,0.003218142
0.030097,0.030119,0.028111,2.19997e-05,-0.00198596,True,False,False,0.582556,0.003218142
0.034309,0.034447,0.0299563,0.000138,-0.00435272,True,False,False,0.582556,0.003218142
0.034706,0.034702,0.0300066,-4.000962e-06,-0.0046994,False,False,False,0.582556,0.003218142
0.025365,0.025512,0.0266326,0.000147,0.00126759,True,True,True,0.582556,0.003218142
0.024321,0.024346,0.0261918,2.50004e-05,0.001870757,True,True,True,0.582556,0.003218142
0.0327,0.032496,0.02924535,-0.0002039969,-0.003454648,False,False,False,0.582556,0.003218142
0.033741,0.033696,0.02964512,-4.50015e-05,-0.00409588,False,False,False,0.582556,0.003218142
0.020751,0.020782,0.0250165,3.1e-05,0.004265545,True,True,True,0.582556,0.003218142
0.034488,0.034451,0.0298704,-3.69996e-05,-0.004617594,False,False,False,0.582556,0.003218142
0.022277,0.022295,0.0254907,1.80006e-05,0.00321372,True,True,True,0.582556,0.003218142
0.027901,0.02795,0.02738582,4.90006e-05,-0.0005151797,True,False,False,0.582556,0.003218142
0.03184,0.031927,0.02890763,8.700043e-05,-0.00293237,True,False,False,0.582556,0.003218142
0.034509,0.034599,0.0298535,8.999929e-05,-0.004655484,True,False,False,0.582556,0.003218142
0.02165,0.021641,0.0253319,-9.000301e-06,0.00368189,False,True,False,0.582556,0.003218142
0.020569,0.020606,0.0249404,3.69996e-05,0.00437138,True,True,True,0.582556,0.003218142
0.029186,0.029145,0.0278512,-4.09987e-05,-0.00133477,False,False,False,0.582556,0.003218142
0.021253,0.021215,0.0252116,-3.79998e-05,0.003958557,False,True,False,0.582556,0.003218142
0.020382,0.020317,0.0248298,-6.500073e-05,0.00444778,False,True,False,0.582556,0.003218142
0.024374,0.024427,0.026225,5.29997e-05,0.00185097,True,True,True,0.582556,0.003218142
0.020606,0.020626,0.024947,1.99992e-05,0.004341027,True,True,True,0.582556,0.003218142
0.02713,0.026965,0.0271821,-0.000165001,5.21373e-05,False,True,False,0.582556,0.003218142
0.026558,0.026574,0.02694902,1.60001e-05,0.0003910195,True,True,True,0.582556,0.003218142
0.02534,0.025166,0.0265665,-0.000174001,0.00122654,False,True,False,0.582556,0.003218142
0.029486,0.029594,0.0279109,0.000108,-0.00157509,True,False,False,0.582556,0.003218142
0.023129,0.023125,0.0258206,-3.999099e-06,0.00269164,False,True,False,0.582556,0.003218142
0.02129,0.021239,0.0252265,-5.10011e-05,0.00393652,False,True,False,0.582556,0.003218142
0.020507,0.020573,0.0249721,6.59991e-05,0.0044651,True,True,True,0.582556,0.003218142
0.021868,0.021942,0.02538013,7.400103e-05,0.003512131,True,True,True,0.582556,0.003218142
0.021863,0.021868,0.0253755,4.99934e-06,0.00351247,True,True,True,0.582556,0.003218142
0.019925,0.020019,0.02480684,9.400025e-05,0.00488184,True,True,True,0.582556,0.003218142
0.027759,0.027901,0.027365,0.000141999,-0.000394009,True,False,False,0.582556,0.003218142
0.02261,0.022558,0.02558979,-5.19995e-05,0.00297979,False,True,False,0.582556,0.003218142
0.034679,0.034488,0.0298819,-0.000190999,-0.00479712,False,False,False,0.582556,0.003218142
0.031763,0.031881,0.028865,0.000118002,-0.00289803,True,False,False,0.582556,0.003218142
0.028682,0.028704,0.02768963,2.20016e-05,-0.0009923689,True,False,False,0.582556,0.003218142