File: Tefas/tahminler/LinearRegression_TGA.csv
x_test,y_test,y_pred,GerçekFark,TahminFark,Gerçek,Tahmin,Ongoru,Skor,mean_squared_error
0.030105,0.030097,0.0300881,-8.000061e-06,-1.68588e-05,False,False,False,0.999648,9.34307e-05
0.025357,0.025434,0.0253861,7.699989e-05,2.90871e-05,True,True,True,0.999648,9.34307e-05
0.021186,0.021201,0.0212032,1.49999e-05,1.71661e-05,True,True,True,0.999648,9.34307e-05
0.032745,0.032641,0.0327435,-0.000103999,-1.51619e-06,False,False,False,0.999648,9.34307e-05
0.020238,0.02026,0.0202611,2.19997e-05,2.30577e-05,True,True,True,0.999648,9.34307e-05
0.020469,0.020482,0.0205086,1.29994e-05,3.96054e-05,True,True,True,0.999648,9.34307e-05
0.03332,0.033435,0.0333424,0.000115,2.238527e-05,True,True,True,0.999648,9.34307e-05
0.02332,0.023498,0.0233508,0.000178,3.08119e-05,True,True,True,0.999648,9.34307e-05
0.034215,0.03453,0.03421507,0.000314999,7.07805e-08,True,True,True,0.999648,9.34307e-05
0.028366,0.028439,0.0283739,7.300079e-05,7.86595e-06,True,True,True,0.999648,9.34307e-05
0.032881,0.032941,0.0329137,5.99995e-05,3.27453e-05,True,True,True,0.999648,9.34307e-05
0.027784,0.027699,0.0277698,-8.499995e-05,-1.41971e-05,False,False,False,0.999648,9.34307e-05
0.032941,0.032965,0.03296928,2.4002e-05,2.82824e-05,True,True,True,0.999648,9.34307e-05
0.032033,0.032178,0.03205902,0.000144999,2.60212e-05,True,True,True,0.999648,9.34307e-05
0.022682,0.02253,0.0227221,-0.0001519993,4.010275e-05,False,True,False,0.999648,9.34307e-05
0.030497,0.030603,0.0305354,0.000106001,3.83891e-05,True,True,True,0.999648,9.34307e-05
0.024308,0.024304,0.0243148,-3.999099e-06,6.755814e-06,False,True,False,0.999648,9.34307e-05
0.020482,0.020488,0.02052114,5.99958e-06,3.91398e-05,True,True,True,0.999648,9.34307e-05
0.027652,0.027759,0.0276576,0.000107002,5.563721e-06,True,True,True,0.999648,9.34307e-05
0.030438,0.030367,0.0304489,-7.100031e-05,1.09337e-05,False,True,False,0.999648,9.34307e-05
0.024427,0.024246,0.0244424,-0.000181001,1.54153e-05,False,True,False,0.999648,9.34307e-05
0.02538,0.025324,0.02539959,-5.60004e-05,1.95894e-05,False,True,False,0.999648,9.34307e-05
0.023176,0.023186,0.0231953,1.00005e-05,1.93454e-05,True,True,True,0.999648,9.34307e-05
0.022619,0.022766,0.0226688,0.000147,4.982762e-05,True,True,True,0.999648,9.34307e-05
0.027056,0.027138,0.02706311,8.200109e-05,7.111579e-06,True,True,True,0.999648,9.34307e-05
0.032128,0.032282,0.0321477,0.000154,1.96993e-05,True,True,True,0.999648,9.34307e-05
0.022997,0.022904,0.02301767,-9.300001e-05,2.06698e-05,False,True,False,0.999648,9.34307e-05
0.030557,0.030629,0.03056866,7.200055e-05,1.16602e-05,True,True,True,0.999648,9.34307e-05
0.024332,0.024344,0.02436009,1.199916e-05,2.80906e-05,True,True,True,0.999648,9.34307e-05
0.033038,0.033102,0.03303723,6.399676e-05,-7.711351e-07,True,False,False,0.999648,9.34307e-05
0.033292,0.033251,0.0332951,-4.10005e-05,3.065914e-06,False,True,False,0.999648,9.34307e-05
0.024723,0.024663,0.0247372,-6.000139e-05,1.41524e-05,False,True,False,0.999648,9.34307e-05
0.034961,0.034929,0.0349401,-3.20002e-05,-2.091378e-05,False,False,False,0.999648,9.34307e-05
0.031954,0.031921,0.0319704,-3.30023e-05,1.63503e-05,False,True,False,0.999648,9.34307e-05
0.023046,0.023008,0.0230626,-3.79998e-05,1.66018e-05,False,True,False,0.999648,9.34307e-05
0.031985,0.032039,0.03200481,5.40018e-05,1.98111e-05,True,True,True,0.999648,9.34307e-05
0.028584,0.028682,0.02860144,9.799935e-05,1.74399e-05,True,True,True,0.999648,9.34307e-05
0.033473,0.033404,0.03347718,-6.899983e-05,4.17978e-06,False,True,False,0.999648,9.34307e-05
0.022701,0.022629,0.0227112,-7.200055e-05,1.02427e-05,False,True,False,0.999648,9.34307e-05
0.020102,0.020169,0.02011153,6.69993e-05,9.529293e-06,True,True,True,0.999648,9.34307e-05
0.034448,0.034228,0.034474,-0.000220001,2.60435e-05,False,True,False,0.999648,9.34307e-05
0.020592,0.020639,0.0206294,4.70001e-05,3.73814e-05,True,True,True,0.999648,9.34307e-05
0.021469,0.021454,0.0214947,-1.49999e-05,2.57362e-05,False,True,False,0.999648,9.34307e-05
0.022656,0.022682,0.02269677,2.60007e-05,4.077144e-05,True,True,True,0.999648,9.34307e-05
0.033295,0.033234,0.0333103,-6.100163e-05,1.52625e-05,False,True,False,0.999648,9.34307e-05
0.024537,0.024508,0.02455356,-2.90014e-05,1.65589e-05,False,True,False,0.999648,9.34307e-05
0.031621,0.031707,0.0316389,8.599833e-05,1.78963e-05,True,True,True,0.999648,9.34307e-05
0.032021,0.032061,0.03204064,3.99984e-05,1.963973e-05,True,True,True,0.999648,9.34307e-05
0.033696,0.033657,0.03369256,-3.90001e-05,-3.438443e-06,False,False,False,0.999648,9.34307e-05
0.033607,0.033738,0.0336147,0.000131,7.659197e-06,True,True,True,0.999648,9.34307e-05
0.019901,0.019911,0.0199105,1.00005e-05,9.47714e-06,True,True,True,0.999648,9.34307e-05
0.023806,0.023888,0.02381959,8.199923e-05,1.35899e-05,True,True,True,0.999648,9.34307e-05
0.033435,0.033401,0.0334477,-3.3997e-05,1.27442e-05,False,True,False,0.999648,9.34307e-05
0.034897,0.034806,0.03488855,-9.100139e-05,-8.448958e-06,False,False,False,0.999648,9.34307e-05
0.022577,0.02261,0.0225894,3.299862e-05,1.24164e-05,True,True,True,0.999648,9.34307e-05
0.032251,0.032401,0.03228724,0.000149999,3.62396e-05,True,True,True,0.999648,9.34307e-05
0.029714,0.029756,0.0297106,4.20008e-05,-3.44403e-06,True,False,False,0.999648,9.34307e-05
0.026672,0.026697,0.0266995,2.50004e-05,2.7461e-05,True,True,True,0.999648,9.34307e-05
0.0258,0.025838,0.025804,3.79998e-05,3.98047e-06,True,True,True,0.999648,9.34307e-05
0.032203,0.03235,0.03223884,0.000147,3.5841e-05,True,True,True,0.999648,9.34307e-05
0.021278,0.021287,0.021307,9.000301e-06,2.90275e-05,True,True,True,0.999648,9.34307e-05
0.027122,0.02713,0.027117,8.000061e-06,-5.012378e-06,True,False,False,0.999648,9.34307e-05
0.033251,0.03332,0.03325955,6.899983e-05,8.549541e-06,True,True,True,0.999648,9.34307e-05
0.03593,0.036027,0.0358435,9.699911e-05,-8.645654e-05,True,False,False,0.999648,9.34307e-05
0.030603,0.030722,0.0306316,0.000118999,2.86065e-05,True,True,True,0.999648,9.34307e-05
0.025046,0.025088,0.02506263,4.19989e-05,1.66297e-05,True,True,True,0.999648,9.34307e-05
0.026156,0.026172,0.0261576,1.60001e-05,1.6056e-06,True,True,True,0.999648,9.34307e-05
0.03192,0.032157,0.03198044,0.000236999,6.043911e-05,True,True,True,0.999648,9.34307e-05
0.023605,0.023633,0.0236185,2.79993e-05,1.350604e-05,True,True,True,0.999648,9.34307e-05
0.022494,0.022524,0.0225537,2.99998e-05,5.970709e-05,True,True,True,0.999648,9.34307e-05
0.02063,0.020706,0.0206697,7.599965e-05,3.969483e-05,True,True,True,0.999648,9.34307e-05
0.033401,0.033587,0.03341788,0.000186,1.687929e-05,True,True,True,0.999648,9.34307e-05
0.020425,0.020481,0.0204666,5.60004e-05,4.15724e-05,True,True,True,0.999648,9.34307e-05
0.032617,0.032758,0.0326179,0.000141002,8.97795e-07,True,True,True,0.999648,9.34307e-05
0.03177,0.031884,0.0318077,0.000114001,3.7685e-05,True,True,True,0.999648,9.34307e-05
0.025636,0.025675,0.02564646,3.90001e-05,1.04588e-05,True,True,True,0.999648,9.34307e-05
0.020431,0.020469,0.0204734,3.79998e-05,4.23808e-05,True,True,True,0.999648,9.34307e-05
0.028865,0.028894,0.02887754,2.89995e-05,1.25393e-05,True,True,True,0.999648,9.34307e-05
0.028868,0.02898,0.0288749,0.000112001,6.89551e-06,True,True,True,0.999648,9.34307e-05
0.023633,0.023614,0.0236458,-1.899898e-05,1.28001e-05,False,True,False,0.999648,9.34307e-05
0.034789,0.034761,0.0348038,-2.79993e-05,1.47782e-05,False,True,False,0.999648,9.34307e-05
0.024023,0.02406,0.0240245,3.69996e-05,1.45845e-06,True,True,True,0.999648,9.34307e-05
0.021443,0.021441,0.021473,-2.000481e-06,3.000535e-05,False,True,False,0.999648,9.34307e-05
0.029266,0.029357,0.0292653,9.099953e-05,-6.87316e-07,True,False,False,0.999648,9.34307e-05
0.020774,0.020884,0.0208094,0.00011,3.54294e-05,True,True,True,0.999648,9.34307e-05
0.03039,0.030177,0.0304304,-0.000212999,4.03747e-05,False,True,False,0.999648,9.34307e-05
0.020368,0.020422,0.0203986,5.39999e-05,3.05921e-05,True,True,True,0.999648,9.34307e-05
0.034596,0.034697,0.0346045,0.000101,8.512288e-06,True,True,True,0.999648,9.34307e-05
0.034409,0.034453,0.0344229,4.39994e-05,1.39028e-05,True,True,True,0.999648,9.34307e-05
0.033102,0.033217,0.03309799,0.000115003,-4.00841e-06,True,False,False,0.999648,9.34307e-05
0.026936,0.027122,0.02694766,0.000186,1.16602e-05,True,True,True,0.999648,9.34307e-05
0.032157,0.032146,0.0321949,-1.10008e-05,3.790483e-05,False,True,False,0.999648,9.34307e-05
0.034618,0.034789,0.03464725,0.000170998,2.92473e-05,True,True,True,0.999648,9.34307e-05
0.033105,0.033202,0.03314793,9.699911e-05,4.29302e-05,True,True,True,0.999648,9.34307e-05
0.020146,0.020171,0.0201602,2.50004e-05,1.41859e-05,True,True,True,0.999648,9.34307e-05
0.020169,0.020182,0.0201751,1.30013e-05,6.143e-06,True,True,True,0.999648,9.34307e-05
0.033214,0.033255,0.0332306,4.10005e-05,1.65664e-05,True,True,True,0.999648,9.34307e-05
0.02513,0.025123,0.0251512,-6.99982e-06,2.119504e-05,False,True,False,0.999648,9.34307e-05
0.025533,0.025636,0.0255514,0.000103001,1.84011e-05,True,True,True,0.999648,9.34307e-05
0.020661,0.020582,0.0206906,-7.900037e-05,2.95565e-05,False,True,False,0.999648,9.34307e-05
0.032849,0.032732,0.0328336,-0.000117,-1.53854e-05,False,False,False,0.999648,9.34307e-05
0.032826,0.032921,0.0328693,9.500235e-05,4.32953e-05,True,True,True,0.999648,9.34307e-05
0.030233,0.030179,0.0302273,-5.39999e-05,-5.67548e-06,False,False,False,0.999648,9.34307e-05
0.020613,0.02062,0.0206441,6.99982e-06,3.113225e-05,True,True,True,0.999648,9.34307e-05
0.020582,0.020592,0.0206197,1.00005e-05,3.77484e-05,True,True,True,0.999648,9.34307e-05
0.033234,0.033036,0.03325656,-0.000197999,2.25604e-05,False,True,False,0.999648,9.34307e-05
0.032956,0.032993,0.0329526,3.69996e-05,-3.41609e-06,True,False,False,0.999648,9.34307e-05
0.034701,0.034834,0.0347016,0.000133,6.37025e-07,True,True,True,0.999648,9.34307e-05
0.021169,0.021186,0.0211855,1.70004e-05,1.65422e-05,True,True,True,0.999648,9.34307e-05
0.032993,0.032977,0.032989,-1.60001e-05,-4.03449e-06,False,False,False,0.999648,9.34307e-05
0.024523,0.02455,0.0245473,2.70009e-05,2.43261e-05,True,True,True,0.999648,9.34307e-05
0.024196,0.024231,0.0242085,3.49991e-05,1.24667e-05,True,True,True,0.999648,9.34307e-05
0.027075,0.027056,0.02707845,-1.90008e-05,3.44962e-06,False,True,False,0.999648,9.34307e-05
0.032453,0.032531,0.0324694,7.800013e-05,1.64136e-05,True,True,True,0.999648,9.34307e-05
0.024231,0.024308,0.0242425,7.699989e-05,1.14758e-05,True,True,True,0.999648,9.34307e-05
0.023536,0.02332,0.0235441,-0.000216,8.052215e-06,False,True,False,0.999648,9.34307e-05
0.021936,0.022011,0.02195588,7.500127e-05,1.988e-05,True,True,True,0.999648,9.34307e-05
0.02725,0.027408,0.0272442,0.000158001,-5.79096e-06,True,False,False,0.999648,9.34307e-05
0.025315,0.025352,0.0253465,3.69996e-05,3.14955e-05,True,True,True,0.999648,9.34307e-05
0.024086,0.02413,0.02409868,4.39994e-05,1.2679e-05,True,True,True,0.999648,9.34307e-05
0.032525,0.032675,0.0325157,0.000150003,-9.316951e-06,True,False,False,0.999648,9.34307e-05
0.031448,0.031522,0.03145408,7.399917e-05,6.07967e-06,True,True,True,0.999648,9.34307e-05
0.019469,0.019445,0.0194778,-2.40002e-05,8.771196e-06,False,True,False,0.999648,9.34307e-05
0.020215,0.020352,0.0202665,0.000137001,5.14667e-05,True,True,True,0.999648,9.34307e-05
0.03132,0.031258,0.0313138,-6.200001e-05,-6.236136e-06,False,False,False,0.999648,9.34307e-05
0.034451,0.034549,0.0344515,9.800121e-05,5.438924e-07,True,True,True,0.999648,9.34307e-05
0.022861,0.023367,0.0229274,0.0005060006,6.64033e-05,True,True,True,0.999648,9.34307e-05
0.022523,0.022492,0.022581,-3.1e-05,5.802512e-05,False,True,False,0.999648,9.34307e-05
0.03169,0.031621,0.0316992,-6.899983e-05,9.201467e-06,False,True,False,0.999648,9.34307e-05
0.022524,0.022523,0.02258136,-9.983778e-07,5.73602e-05,False,True,False,0.999648,9.34307e-05
0.020884,0.020981,0.0209101,9.700097e-05,2.60994e-05,True,True,True,0.999648,9.34307e-05
0.033255,0.033409,0.0332826,0.000154,2.7556e-05,True,True,True,0.999648,9.34307e-05
0.034372,0.034448,0.0344043,7.600337e-05,3.228709e-05,True,True,True,0.999648,9.34307e-05
0.024982,0.025029,0.0250141,4.70001e-05,3.21362e-05,True,True,True,0.999648,9.34307e-05
0.03072,0.030808,0.0307416,8.800067e-05,2.15676e-05,True,True,True,0.999648,9.34307e-05
0.029546,0.029597,0.02953244,5.09992e-05,-1.35601e-05,True,False,False,0.999648,9.34307e-05
0.020616,0.020607,0.02065508,-9.000301e-06,3.90802e-05,False,True,False,0.999648,9.34307e-05
0.01953,0.019507,0.0195413,-2.29999e-05,1.13342e-05,False,True,False,0.999648,9.34307e-05
0.032898,0.032985,0.03288795,8.700043e-05,-1.00508e-05,True,False,False,0.999648,9.34307e-05
0.022071,0.022116,0.022089,4.49996e-05,1.79578e-05,True,True,True,0.999648,9.34307e-05
0.025324,0.025317,0.0253506,-6.99982e-06,2.65576e-05,False,True,False,0.999648,9.34307e-05
0.021307,0.021319,0.0213295,1.199916e-05,2.25045e-05,True,True,True,0.999648,9.34307e-05
0.023312,0.023262,0.0233316,-5.00008e-05,1.9636e-05,False,True,False,0.999648,9.34307e-05
0.034453,0.034646,0.0344647,0.000193,1.174584e-05,True,True,True,0.999648,9.34307e-05
0.020019,0.020102,0.0200336,8.299947e-05,1.46143e-05,True,True,True,0.999648,9.34307e-05
0.032085,0.032022,0.0321015,-6.300211e-05,1.65254e-05,False,True,False,0.999648,9.34307e-05
0.030671,0.03072,0.0306967,4.89987e-05,2.56542e-05,True,True,True,0.999648,9.34307e-05
0.027501,0.027553,0.0274851,5.19995e-05,-1.591444e-05,True,False,False,0.999648,9.34307e-05
0.025268,0.02521,0.0252872,-5.7999e-05,1.92467e-05,False,True,False,0.999648,9.34307e-05
0.020507,0.020507,0.0205537,0.0,4.67133e-05,False,True,False,0.999648,9.34307e-05
0.022569,0.02268,0.0225962,0.000110999,2.72114e-05,True,True,True,0.999648,9.34307e-05
0.025312,0.025365,0.02534809,5.29997e-05,3.608875e-05,True,True,True,0.999648,9.34307e-05
0.030564,0.03046,0.0305804,-0.000104001,1.64304e-05,False,True,False,0.999648,9.34307e-05
0.03423,0.03442,0.0342779,0.000189997,4.788488e-05,True,True,True,0.999648,9.34307e-05
0.034974,0.034618,0.0349672,-0.000356,-6.80238e-06,False,False,False,0.999648,9.34307e-05
0.030119,0.030098,0.03010864,-2.09995e-05,-1.036e-05,False,False,False,0.999648,9.34307e-05
0.033587,0.033669,0.0335873,8.19974e-05,3.12924e-07,True,True,True,0.999648,9.34307e-05
0.02754,0.02755,0.0275391,1.00005e-05,-9.033829e-07,True,False,False,0.999648,9.34307e-05
0.032641,0.032689,0.0326507,4.80004e-05,9.715557e-06,True,True,True,0.999648,9.34307e-05
0.030459,0.030469,0.030496,1.00005e-05,3.69661e-05,True,True,True,0.999648,9.34307e-05
0.032379,0.032233,0.0323996,-0.000146002,2.06009e-05,False,True,False,0.999648,9.34307e-05
0.03055,0.030525,0.03058219,-2.499856e-05,3.21902e-05,False,True,False,0.999648,9.34307e-05
0.031508,0.031492,0.0315138,-1.60001e-05,5.789101e-06,False,True,False,0.999648,9.34307e-05
0.031628,0.031612,0.0316534,-1.60001e-05,2.54251e-05,False,True,False,0.999648,9.34307e-05
0.019493,0.019524,0.01950252,3.1e-05,9.519979e-06,True,True,True,0.999648,9.34307e-05
0.024382,0.024354,0.024392,-2.80011e-05,9.99682e-06,False,True,False,0.999648,9.34307e-05
0.021665,0.021649,0.0216871,-1.60001e-05,2.20519e-05,False,True,False,0.999648,9.34307e-05
0.025077,0.025004,0.02508043,-7.300079e-05,3.42913e-06,False,True,False,0.999648,9.34307e-05
0.021061,0.021058,0.0210761,-2.99886e-06,1.50856e-05,False,True,False,0.999648,9.34307e-05
0.025512,0.025533,0.0255311,2.09995e-05,1.911074e-05,True,True,True,0.999648,9.34307e-05
0.025088,0.024995,0.0251031,-9.300001e-05,1.50688e-05,False,True,False,0.999648,9.34307e-05
0.026341,0.026369,0.0263342,2.79993e-05,-6.76326e-06,True,False,False,0.999648,9.34307e-05
0.02406,0.024007,0.0240605,-5.29997e-05,4.786998e-07,False,True,False,0.999648,9.34307e-05
0.019447,0.019476,0.0194538,2.89995e-05,6.75209e-06,True,True,True,0.999648,9.34307e-05
0.022757,0.022782,0.0228014,2.50004e-05,4.44148e-05,True,True,True,0.999648,9.34307e-05
0.028126,0.028186,0.02811717,6.000139e-05,-8.828938e-06,True,False,False,0.999648,9.34307e-05
0.022616,0.022558,0.02266567,-5.80009e-05,4.96693e-05,False,True,False,0.999648,9.34307e-05
0.02253,0.022494,0.0225857,-3.60012e-05,5.56912e-05,False,True,False,0.999648,9.34307e-05
0.032233,0.032198,0.0322682,-3.49991e-05,3.51965e-05,False,True,False,0.999648,9.34307e-05
0.032802,0.032826,0.0328473,2.399832e-05,4.532188e-05,True,True,True,0.999648,9.34307e-05
0.034405,0.034509,0.0343927,0.000103999,-1.231581e-05,True,False,False,0.999648,9.34307e-05
0.030309,0.030415,0.0303583,0.000106001,4.925579e-05,True,True,True,0.999648,9.34307e-05
0.024664,0.024724,0.0246939,5.99995e-05,2.987869e-05,True,True,True,0.999648,9.34307e-05
0.034697,0.034706,0.034696,9.000301e-06,-1.04681e-06,True,False,False,0.999648,9.34307e-05
0.031423,0.031455,0.03142084,3.20002e-05,-2.156943e-06,True,False,False,0.999648,9.34307e-05
0.031881,0.031861,0.03189469,-2.00011e-05,1.36904e-05,False,True,False,0.999648,9.34307e-05
0.033995,0.034153,0.0340057,0.000158001,1.06581e-05,True,True,True,0.999648,9.34307e-05
0.028974,0.029017,0.0289812,4.29992e-05,7.186085e-06,True,True,True,0.999648,9.34307e-05
0.026438,0.026511,0.0264835,7.300079e-05,4.54988e-05,True,True,True,0.999648,9.34307e-05
0.020639,0.020539,0.0206726,-9.999983e-05,3.36003e-05,False,True,False,0.999648,9.34307e-05
0.021501,0.021571,0.0215325,7.000007e-05,3.146194e-05,True,True,True,0.999648,9.34307e-05
0.026474,0.026459,0.026472,-1.50017e-05,-2.00421e-06,False,False,False,0.999648,9.34307e-05
0.034929,0.034932,0.0349122,2.99886e-06,-1.67936e-05,True,False,False,0.999648,9.34307e-05
0.025004,0.024946,0.0250166,-5.7999e-05,1.25933e-05,False,True,False,0.999648,9.34307e-05
0.026036,0.02617,0.0260411,0.000134001,5.06826e-06,True,True,True,0.999648,9.34307e-05
0.033652,0.033741,0.0336502,8.900091e-05,-1.847744e-06,True,False,False,0.999648,9.34307e-05
0.025169,0.025209,0.025194,4.00003e-05,2.49781e-05,True,True,True,0.999648,9.34307e-05
0.026509,0.02643,0.0265474,-7.900037e-05,3.841892e-05,False,True,False,0.999648,9.34307e-05
0.021244,0.021295,0.0212887,5.09992e-05,4.467368e-05,True,True,True,0.999648,9.34307e-05
0.027553,0.0276,0.0275357,4.70001e-05,-1.73133e-05,True,False,False,0.999648,9.34307e-05
0.023395,0.023316,0.0234008,-7.900037e-05,5.83753e-06,False,True,False,0.999648,9.34307e-05
0.030243,0.030353,0.03024794,0.00011,4.939735e-06,True,True,True,0.999648,9.34307e-05
0.020352,0.020281,0.02039131,-7.100031e-05,3.93093e-05,False,True,False,0.999648,9.34307e-05
0.032977,0.032966,0.03297752,-1.10008e-05,5.21541e-07,False,True,False,0.999648,9.34307e-05
0.032518,0.032525,0.0325071,6.99982e-06,-1.09151e-05,True,False,False,0.999648,9.34307e-05
0.030322,0.03038,0.0303275,5.7999e-05,5.52461e-06,True,True,True,0.999648,9.34307e-05
0.024588,0.024615,0.0246092,2.6999e-05,2.11727e-05,True,True,True,0.999648,9.34307e-05
0.034151,0.034081,0.03414145,-6.99982e-05,-9.547919e-06,False,False,False,0.999648,9.34307e-05
0.022894,0.022769,0.0229044,-0.000125,1.03712e-05,False,True,False,0.999648,9.34307e-05
0.031522,0.031508,0.0315236,-1.39996e-05,1.58697e-06,False,True,False,0.999648,9.34307e-05
0.031699,0.031709,0.0317217,9.998679e-06,2.27019e-05,True,True,True,0.999648,9.34307e-05
0.026897,0.026852,0.0269068,-4.49996e-05,9.791926e-06,False,True,False,0.999648,9.34307e-05
0.024946,0.024933,0.024966,-1.30013e-05,2.00383e-05,False,True,False,0.999648,9.34307e-05
0.026734,0.026763,0.02675685,2.89995e-05,2.28491e-05,True,True,True,0.999648,9.34307e-05
0.020505,0.020479,0.0205367,-2.60007e-05,3.165193e-05,False,True,False,0.999648,9.34307e-05
0.02268,0.022703,0.0226986,2.29999e-05,1.86078e-05,True,True,True,0.999648,9.34307e-05
0.032288,0.032379,0.0323163,9.100139e-05,2.83048e-05,True,True,True,0.999648,9.34307e-05
0.034641,0.034254,0.0346447,-0.000387002,3.70666e-06,False,True,False,0.999648,9.34307e-05
0.026925,0.026936,0.0269367,1.10008e-05,1.17291e-05,True,True,True,0.999648,9.34307e-05
0.032156,0.032251,0.0322015,9.499863e-05,4.548207e-05,True,True,True,0.999648,9.34307e-05
0.030097,0.030119,0.030085,2.19997e-05,-1.19656e-05,True,False,False,0.999648,9.34307e-05
0.034309,0.034447,0.0343472,0.000138,3.81768e-05,True,True,True,0.999648,9.34307e-05
0.034706,0.034702,0.03470464,-4.000962e-06,-1.359731e-06,False,False,False,0.999648,9.34307e-05
0.025365,0.025512,0.025397,0.000147,3.19667e-05,True,True,True,0.999648,9.34307e-05
0.024321,0.024346,0.02433198,2.50004e-05,1.09803e-05,True,True,True,0.999648,9.34307e-05
0.0327,0.032496,0.0326891,-0.0002039969,-1.09337e-05,False,False,False,0.999648,9.34307e-05
0.033741,0.033696,0.0337319,-4.50015e-05,-9.085983e-06,False,False,False,0.999648,9.34307e-05
0.020751,0.020782,0.0207819,3.1e-05,3.09218e-05,True,True,True,0.999648,9.34307e-05
0.034488,0.034451,0.0344827,-3.69996e-05,-5.34207e-06,False,False,False,0.999648,9.34307e-05
0.022277,0.022295,0.02228975,1.80006e-05,1.27498e-05,True,True,True,0.999648,9.34307e-05
0.027901,0.02795,0.0278899,4.90006e-05,-1.10865e-05,True,False,False,0.999648,9.34307e-05
0.03184,0.031927,0.0318641,8.700043e-05,2.4084e-05,True,True,True,0.999648,9.34307e-05
0.034509,0.034599,0.03449194,8.999929e-05,-1.70581e-05,True,False,False,0.999648,9.34307e-05
0.02165,0.021641,0.0216779,-9.000301e-06,2.794899e-05,False,True,False,0.999648,9.34307e-05
0.020569,0.020606,0.0206016,3.69996e-05,3.25665e-05,True,True,True,0.999648,9.34307e-05
0.029186,0.029145,0.029188,-4.09987e-05,1.98558e-06,False,True,False,0.999648,9.34307e-05
0.021253,0.021215,0.02129598,-3.79998e-05,4.29805e-05,False,True,False,0.999648,9.34307e-05
0.020382,0.020317,0.0204052,-6.500073e-05,2.31937e-05,False,True,False,0.999648,9.34307e-05
0.024374,0.024427,0.02439225,5.29997e-05,1.82502e-05,True,True,True,0.999648,9.34307e-05
0.020606,0.020626,0.0206361,1.99992e-05,3.00556e-05,True,True,True,0.999648,9.34307e-05
0.02713,0.026965,0.0271258,-0.000165001,-4.151836e-06,False,False,False,0.999648,9.34307e-05
0.026558,0.026574,0.0265653,1.60001e-05,7.31461e-06,True,True,True,0.999648,9.34307e-05
0.02534,0.025166,0.025356,-0.000174001,1.597777e-05,False,True,False,0.999648,9.34307e-05
0.029486,0.029594,0.0294709,0.000108,-1.50539e-05,True,False,False,0.999648,9.34307e-05
0.023129,0.023125,0.0231421,-3.999099e-06,1.31223e-05,False,True,False,0.999648,9.34307e-05
0.02129,0.021239,0.0213314,-5.10011e-05,4.135631e-05,False,True,False,0.999648,9.34307e-05
0.020507,0.020573,0.0205541,6.59991e-05,4.71361e-05,True,True,True,0.999648,9.34307e-05
0.021868,0.021942,0.0218887,7.400103e-05,2.0666e-05,True,True,True,0.999648,9.34307e-05
0.021863,0.021868,0.0218822,4.99934e-06,1.91685e-05,True,True,True,0.999648,9.34307e-05
0.019925,0.020019,0.0199461,9.400025e-05,2.10665e-05,True,True,True,0.999648,9.34307e-05
0.027759,0.027901,0.02775775,0.000141999,-1.24983e-06,True,False,False,0.999648,9.34307e-05
0.02261,0.022558,0.0226218,-5.19995e-05,1.18073e-05,False,True,False,0.999648,9.34307e-05
0.034679,0.034488,0.0346521,-0.000190999,-2.69003e-05,False,False,False,0.999648,9.34307e-05
0.031763,0.031881,0.03178627,0.000118002,2.32719e-05,True,True,True,0.999648,9.34307e-05
0.028682,0.028704,0.0286931,2.20016e-05,1.10678e-05,True,True,True,0.999648,9.34307e-05